Instruction	Word	song	valence	arousal	marker	pracwords.thisRepN	pracwords.thisTrialN	pracwords.thisN	pracwords.thisIndex	songtrials.thisRepN	songtrials.thisTrialN	songtrials.thisN	songtrials.thisIndex	words.thisRepN	words.thisTrialN	words.thisN	words.thisIndex	begin.keys	begin.rt	arousalkey.keys	arousalkey.rt	valencekey.keys	valencekey.rt	likekey.keys	likekey.rt	WordResponse.keys	WordResponse.rt	key_resp_2.keys	key_resp_2.rt	participant	session	date	expName	psychopyVersion	frameRate																		space	13.45058948											999	1	2019_Apr_12_1007	MusicAffectPsychophysiology2019	3.0.5	60.17796767																				5	5.892157527									999	1	2019_Apr_12_1007	MusicAffectPsychophysiology2019	3.0.5	60.17796767																						5	2.669277643							999	1	2019_Apr_12_1007	MusicAffectPsychophysiology2019	3.0.5	60.17796767																								5	1.767842258					999	1	2019_Apr_12_1007	MusicAffectPsychophysiology2019	3.0.5	60.17796767To what extent did the music make you feel 	FRUSTRATED					0	0	0	3																	1	4.716044866			999	1	2019_Apr_12_1007	MusicAffectPsychophysiology2019	3.0.5	60.17796767To what extent did the music make you feel 	SCARED					0	1	1	11																	1	1.518490374			999	1	2019_Apr_12_1007	MusicAffectPsychophysiology2019	3.0.5	60.17796767To what extent did the music make you feel 	SAD					0	2	2	0																	2	6.733733466			999	1	2019_Apr_12_1007	MusicAffectPsychophysiology2019	3.0.5	60.17796767To what extent did the music make you feel 	TENDER					0	3	3	10																	2	6.501319356			999	1	2019_Apr_12_1007	MusicAffectPsychophysiology2019	3.0.5	60.17796767To what extent did the music make you feel 	ACTIVE					0	4	4	9																	4	4.735168157			999	1	2019_Apr_12_1007	MusicAffectPsychophysiology2019	3.0.5	60.17796767To what extent did the music make you feel 	ALERT					0	5	5	8																	2	5.335157551			999	1	2019_Apr_12_1007	MusicAffectPsychophysiology2019	3.0.5	60.17796767To what extent did the music make you feel 	EXCITED					0	6	6	7																	5	2.618467075			999	1	2019_Apr_12_1007	MusicAffectPsychophysiology2019	3.0.5	60.17796767To what extent did the music make you feel 	ANXIOUS 					0	7	7	1																	1	2.151323415			999	1	2019_Apr_12_1007	MusicAffectPsychophysiology2019	3.0.5	60.17796767To what extent did the music make you feel 	GUILTY					0	8	8	5																	1	1.418608352			999	1	2019_Apr_12_1007	MusicAffectPsychophysiology2019	3.0.5	60.17796767To what extent did the music make you feel 	ANGRY					0	9	9	2																	1	1.201394299			999	1	2019_Apr_12_1007	MusicAffectPsychophysiology2019	3.0.5	60.17796767To what extent did the music make you feel 	HAPPY					0	10	10	6																	5	1.999331927			999	1	2019_Apr_12_1007	MusicAffectPsychophysiology2019	3.0.5	60.17796767To what extent did the music make you feel 	ASHAMED					0	11	11	4																	1	2.069546958			999	1	2019_Apr_12_1007	MusicAffectPsychophysiology2019	3.0.5	60.17796767To what extent did the music make you feel 	EXCITED	30MonoWAV/30MonoH2.wav	2	2	6					0	0	0	5	0	0	0	7			3	6.817202557	4	5.748449205			4	6.150568663			999	1	2019_Apr_12_1007	MusicAffectPsychophysiology2019	3.0.5	60.17796767To what extent did the music make you feel 	FRUSTRATED	30MonoWAV/30MonoH2.wav	2	2	6					0	0	0	5	0	1	1	3									1	2.151633376			999	1	2019_Apr_12_1007	MusicAffectPsychophysiology2019	3.0.5	60.17796767To what extent did the music make you feel 	SAD	30MonoWAV/30MonoH2.wav	2	2	6					0	0	0	5	0	2	2	0									1	1.633064207			999	1	2019_Apr_12_1007	MusicAffectPsychophysiology2019	3.0.5	60.17796767To what extent did the music make you feel 	ACTIVE	30MonoWAV/30MonoH2.wav	2	2	6					0	0	0	5	0	3	3	9									4	1.918041936			999	1	2019_Apr_12_1007	MusicAffectPsychophysiology2019	3.0.5	60.17796767To what extent did the music make you feel 	GUILTY	30MonoWAV/30MonoH2.wav	2	2	6					0	0	0	5	0	4	4	5									1	1.566686625			999	1	2019_Apr_12_1007	MusicAffectPsychophysiology2019	3.0.5	60.17796767To what extent did the music make you feel 	ASHAMED	30MonoWAV/30MonoH2.wav	2	2	6					0	0	0	5	0	5	5	4									1	2.502162085			999	1	2019_Apr_12_1007	MusicAffectPsychophysiology2019	3.0.5	60.17796767To what extent did the music make you feel 	HAPPY	30MonoWAV/30MonoH2.wav	2	2	6					0	0	0	5	0	6	6	6									4	1.751968207			999	1	2019_Apr_12_1007	MusicAffectPsychophysiology2019	3.0.5	60.17796767To what extent did the music make you feel 	TENDER	30MonoWAV/30MonoH2.wav	2	2	6					0	0	0	5	0	7	7	10									3	1.984655517			999	1	2019_Apr_12_1007	MusicAffectPsychophysiology2019	3.0.5	60.17796767To what extent did the music make you feel 	SCARED	30MonoWAV/30MonoH2.wav	2	2	6					0	0	0	5	0	8	8	11									2	5.318471247			999	1	2019_Apr_12_1007	MusicAffectPsychophysiology2019	3.0.5	60.17796767To what extent did the music make you feel 	ANXIOUS 	30MonoWAV/30MonoH2.wav	2	2	6					0	0	0	5	0	9	9	1									1	1.368950706			999	1	2019_Apr_12_1007	MusicAffectPsychophysiology2019	3.0.5	60.17796767To what extent did the music make you feel 	ALERT	30MonoWAV/30MonoH2.wav	2	2	6					0	0	0	5	0	10	10	8									4	2.235657387			999	1	2019_Apr_12_1007	MusicAffectPsychophysiology2019	3.0.5	60.17796767To what extent did the music make you feel 	ANGRY	30MonoWAV/30MonoH2.wav	2	2	6					0	0	0	5	0	11	11	2									1	1.266567135			999	1	2019_Apr_12_1007	MusicAffectPsychophysiology2019	3.0.5	60.17796767		30MonoWAV/30MonoH2.wav	2	2	6					0	0	0	5																	999	1	2019_Apr_12_1007	MusicAffectPsychophysiology2019	3.0.5	60.17796767To what extent did the music make you feel 	TENDER	30MonoWAV/30MonoF3.wav	1	2	3					0	1	1	2	0	0	0	10			3	5.911116534	1	6.018053122			4	6.666018363			999	1	2019_Apr_12_1007	MusicAffectPsychophysiology2019	3.0.5	60.17796767To what extent did the music make you feel 	HAPPY	30MonoWAV/30MonoF3.wav	1	2	3					0	1	1	2	0	1	1	6									1	2.068295404			999	1	2019_Apr_12_1007	MusicAffectPsychophysiology2019	3.0.5	60.17796767To what extent did the music make you feel 	SCARED	30MonoWAV/30MonoF3.wav	1	2	3					0	1	1	2	0	2	2	11									4	2.485809406			999	1	2019_Apr_12_1007	MusicAffectPsychophysiology2019	3.0.5	60.17796767To what extent did the music make you feel 	SAD	30MonoWAV/30MonoF3.wav	1	2	3					0	1	1	2	0	3	3	0									3	1.534544621			999	1	2019_Apr_12_1007	MusicAffectPsychophysiology2019	3.0.5	60.17796767To what extent did the music make you feel 	EXCITED	30MonoWAV/30MonoF3.wav	1	2	3					0	1	1	2	0	4	4	7									1	1.452555979			999	1	2019_Apr_12_1007	MusicAffectPsychophysiology2019	3.0.5	60.17796767To what extent did the music make you feel 	GUILTY	30MonoWAV/30MonoF3.wav	1	2	3					0	1	1	2	0	5	5	5									4	4.251352749			999	1	2019_Apr_12_1007	MusicAffectPsychophysiology2019	3.0.5	60.17796767To what extent did the music make you feel 	ACTIVE	30MonoWAV/30MonoF3.wav	1	2	3					0	1	1	2	0	6	6	9									4	2.418847798			999	1	2019_Apr_12_1007	MusicAffectPsychophysiology2019	3.0.5	60.17796767To what extent did the music make you feel 	ANXIOUS 	30MonoWAV/30MonoF3.wav	1	2	3					0	1	1	2	0	7	7	1									5	1.783035668			999	1	2019_Apr_12_1007	MusicAffectPsychophysiology2019	3.0.5	60.17796767To what extent did the music make you feel 	ALERT	30MonoWAV/30MonoF3.wav	1	2	3					0	1	1	2	0	8	8	8									5	0.91816647			999	1	2019_Apr_12_1007	MusicAffectPsychophysiology2019	3.0.5	60.17796767To what extent did the music make you feel 	ANGRY	30MonoWAV/30MonoF3.wav	1	2	3					0	1	1	2	0	9	9	2									3	1.68569631			999	1	2019_Apr_12_1007	MusicAffectPsychophysiology2019	3.0.5	60.17796767To what extent did the music make you feel 	ASHAMED	30MonoWAV/30MonoF3.wav	1	2	3					0	1	1	2	0	10	10	4									3	1.788200233			999	1	2019_Apr_12_1007	MusicAffectPsychophysiology2019	3.0.5	60.17796767To what extent did the music make you feel 	FRUSTRATED	30MonoWAV/30MonoF3.wav	1	2	3					0	1	1	2	0	11	11	3									4	3.289219895			999	1	2019_Apr_12_1007	MusicAffectPsychophysiology2019	3.0.5	60.17796767		30MonoWAV/30MonoF3.wav	1	2	3					0	1	1	2																	999	1	2019_Apr_12_1007	MusicAffectPsychophysiology2019	3.0.5	60.17796767To what extent did the music make you feel 	EXCITED	30MonoWAV/30MonoF4.wav	1	2	4					0	2	2	3	0	0	0	7			4	7.241224556	3	1.652623847			4	2.320963614			999	1	2019_Apr_12_1007	MusicAffectPsychophysiology2019	3.0.5	60.17796767To what extent did the music make you feel 	FRUSTRATED	30MonoWAV/30MonoF4.wav	1	2	4					0	2	2	3	0	1	1	3									4	3.107338563			999	1	2019_Apr_12_1007	MusicAffectPsychophysiology2019	3.0.5	60.17796767To what extent did the music make you feel 	ASHAMED	30MonoWAV/30MonoF4.wav	1	2	4					0	2	2	3	0	2	2	4									4	2.468324398			999	1	2019_Apr_12_1007	MusicAffectPsychophysiology2019	3.0.5	60.17796767To what extent did the music make you feel 	GUILTY	30MonoWAV/30MonoF4.wav	1	2	4					0	2	2	3	0	3	3	5									3	1.75137193			999	1	2019_Apr_12_1007	MusicAffectPsychophysiology2019	3.0.5	60.17796767To what extent did the music make you feel 	ANGRY	30MonoWAV/30MonoF4.wav	1	2	4					0	2	2	3	0	4	4	2									4	2.134798545			999	1	2019_Apr_12_1007	MusicAffectPsychophysiology2019	3.0.5	60.17796767To what extent did the music make you feel 	ALERT	30MonoWAV/30MonoF4.wav	1	2	4					0	2	2	3	0	5	5	8									5	1.318113663			999	1	2019_Apr_12_1007	MusicAffectPsychophysiology2019	3.0.5	60.17796767To what extent did the music make you feel 	ACTIVE	30MonoWAV/30MonoF4.wav	1	2	4					0	2	2	3	0	6	6	9									5	2.568989134			999	1	2019_Apr_12_1007	MusicAffectPsychophysiology2019	3.0.5	60.17796767To what extent did the music make you feel 	TENDER	30MonoWAV/30MonoF4.wav	1	2	4					0	2	2	3	0	7	7	10									4	1.334985487			999	1	2019_Apr_12_1007	MusicAffectPsychophysiology2019	3.0.5	60.17796767To what extent did the music make you feel 	ANXIOUS 	30MonoWAV/30MonoF4.wav	1	2	4					0	2	2	3	0	8	8	1									5	1.98412579			999	1	2019_Apr_12_1007	MusicAffectPsychophysiology2019	3.0.5	60.17796767To what extent did the music make you feel 	SCARED	30MonoWAV/30MonoF4.wav	1	2	4					0	2	2	3	0	9	9	11									5	1.201534796			999	1	2019_Apr_12_1007	MusicAffectPsychophysiology2019	3.0.5	60.17796767To what extent did the music make you feel 	HAPPY	30MonoWAV/30MonoF4.wav	1	2	4					0	2	2	3	0	10	10	6									1	2.486308646			999	1	2019_Apr_12_1007	MusicAffectPsychophysiology2019	3.0.5	60.17796767To what extent did the music make you feel 	SAD	30MonoWAV/30MonoF4.wav	1	2	4					0	2	2	3	0	11	11	0									4	1.950596502			999	1	2019_Apr_12_1007	MusicAffectPsychophysiology2019	3.0.5	60.17796767		30MonoWAV/30MonoF4.wav	1	2	4					0	2	2	3																	999	1	2019_Apr_12_1007	MusicAffectPsychophysiology2019	3.0.5	60.17796767To what extent did the music make you feel 	HAPPY	30MonoWAV/30MonoH3.wav	2	2	7					0	3	3	6	0	0	0	6			4	4.033300861	5	3.470129829			5	1.234585509			999	1	2019_Apr_12_1007	MusicAffectPsychophysiology2019	3.0.5	60.17796767To what extent did the music make you feel 	TENDER	30MonoWAV/30MonoH3.wav	2	2	7					0	3	3	6	0	1	1	10									4	1.30148149			999	1	2019_Apr_12_1007	MusicAffectPsychophysiology2019	3.0.5	60.17796767To what extent did the music make you feel 	ASHAMED	30MonoWAV/30MonoH3.wav	2	2	7					0	3	3	6	0	2	2	4									1	1.90092525			999	1	2019_Apr_12_1007	MusicAffectPsychophysiology2019	3.0.5	60.17796767To what extent did the music make you feel 	ANXIOUS 	30MonoWAV/30MonoH3.wav	2	2	7					0	3	3	6	0	3	3	1									1	1.218822177			999	1	2019_Apr_12_1007	MusicAffectPsychophysiology2019	3.0.5	60.17796767To what extent did the music make you feel 	GUILTY	30MonoWAV/30MonoH3.wav	2	2	7					0	3	3	6	0	4	4	5									1	1.40186474			999	1	2019_Apr_12_1007	MusicAffectPsychophysiology2019	3.0.5	60.17796767To what extent did the music make you feel 	EXCITED	30MonoWAV/30MonoH3.wav	2	2	7					0	3	3	6	0	5	5	7									5	1.733905241			999	1	2019_Apr_12_1007	MusicAffectPsychophysiology2019	3.0.5	60.17796767To what extent did the music make you feel 	ALERT	30MonoWAV/30MonoH3.wav	2	2	7					0	3	3	6	0	6	6	8									4	2.650280662			999	1	2019_Apr_12_1007	MusicAffectPsychophysiology2019	3.0.5	60.17796767To what extent did the music make you feel 	FRUSTRATED	30MonoWAV/30MonoH3.wav	2	2	7					0	3	3	6	0	7	7	3									1	1.301769826			999	1	2019_Apr_12_1007	MusicAffectPsychophysiology2019	3.0.5	60.17796767To what extent did the music make you feel 	SCARED	30MonoWAV/30MonoH3.wav	2	2	7					0	3	3	6	0	8	8	11									1	1.218675691			999	1	2019_Apr_12_1007	MusicAffectPsychophysiology2019	3.0.5	60.17796767To what extent did the music make you feel 	ACTIVE	30MonoWAV/30MonoH3.wav	2	2	7					0	3	3	6	0	9	9	9									4	1.990033255			999	1	2019_Apr_12_1007	MusicAffectPsychophysiology2019	3.0.5	60.17796767To what extent did the music make you feel 	ANGRY	30MonoWAV/30MonoH3.wav	2	2	7					0	3	3	6	0	10	10	2									1	1.285970144			999	1	2019_Apr_12_1007	MusicAffectPsychophysiology2019	3.0.5	60.17796767To what extent did the music make you feel 	SAD	30MonoWAV/30MonoH3.wav	2	2	7					0	3	3	6	0	11	11	0									1	2.271707985			999	1	2019_Apr_12_1007	MusicAffectPsychophysiology2019	3.0.5	60.17796767		30MonoWAV/30MonoH3.wav	2	2	7					0	3	3	6																	999	1	2019_Apr_12_1007	MusicAffectPsychophysiology2019	3.0.5	60.17796767To what extent did the music make you feel 	ACTIVE	30MonoWAV/30MonoT1.wav	2	1	13					0	4	4	12	0	0	0	9			1	4.872680161	4	2.321516267			1	3.239201064			999	1	2019_Apr_12_1007	MusicAffectPsychophysiology2019	3.0.5	60.17796767To what extent did the music make you feel 	ASHAMED	30MonoWAV/30MonoT1.wav	2	1	13					0	4	4	12	0	1	1	4									1	1.390404966			999	1	2019_Apr_12_1007	MusicAffectPsychophysiology2019	3.0.5	60.17796767To what extent did the music make you feel 	SAD	30MonoWAV/30MonoT1.wav	2	1	13					0	4	4	12	0	2	2	0									2	1.501607445			999	1	2019_Apr_12_1007	MusicAffectPsychophysiology2019	3.0.5	60.17796767To what extent did the music make you feel 	ANXIOUS 	30MonoWAV/30MonoT1.wav	2	1	13					0	4	4	12	0	3	3	1									1	1.535328038			999	1	2019_Apr_12_1007	MusicAffectPsychophysiology2019	3.0.5	60.17796767To what extent did the music make you feel 	HAPPY	30MonoWAV/30MonoT1.wav	2	1	13					0	4	4	12	0	4	4	6									4	2.235157488			999	1	2019_Apr_12_1007	MusicAffectPsychophysiology2019	3.0.5	60.17796767To what extent did the music make you feel 	EXCITED	30MonoWAV/30MonoT1.wav	2	1	13					0	4	4	12	0	5	5	7									3	1.835165234			999	1	2019_Apr_12_1007	MusicAffectPsychophysiology2019	3.0.5	60.17796767To what extent did the music make you feel 	SCARED	30MonoWAV/30MonoT1.wav	2	1	13					0	4	4	12	0	6	6	11									1	2.1986413			999	1	2019_Apr_12_1007	MusicAffectPsychophysiology2019	3.0.5	60.17796767To what extent did the music make you feel 	FRUSTRATED	30MonoWAV/30MonoT1.wav	2	1	13					0	4	4	12	0	7	7	3									1	1.184970293			999	1	2019_Apr_12_1007	MusicAffectPsychophysiology2019	3.0.5	60.17796767To what extent did the music make you feel 	GUILTY	30MonoWAV/30MonoT1.wav	2	1	13					0	4	4	12	0	8	8	5									1	1.268215981			999	1	2019_Apr_12_1007	MusicAffectPsychophysiology2019	3.0.5	60.17796767To what extent did the music make you feel 	ALERT	30MonoWAV/30MonoT1.wav	2	1	13					0	4	4	12	0	9	9	8									1	2.068590593			999	1	2019_Apr_12_1007	MusicAffectPsychophysiology2019	3.0.5	60.17796767To what extent did the music make you feel 	TENDER	30MonoWAV/30MonoT1.wav	2	1	13					0	4	4	12	0	10	10	10									2	2.56770657			999	1	2019_Apr_12_1007	MusicAffectPsychophysiology2019	3.0.5	60.17796767To what extent did the music make you feel 	ANGRY	30MonoWAV/30MonoT1.wav	2	1	13					0	4	4	12	0	11	11	2									1	7.502085199			999	1	2019_Apr_12_1007	MusicAffectPsychophysiology2019	3.0.5	60.17796767		30MonoWAV/30MonoT1.wav	2	1	13					0	4	4	12																	999	1	2019_Apr_12_1007	MusicAffectPsychophysiology2019	3.0.5	60.17796767To what extent did the music make you feel 	ANXIOUS 	30MonoWAV/30MonoH4.wav	2	2	8					0	5	5	7	0	0	0	1			4	3.284516313	4	1.301756013			2	2.550361951			999	1	2019_Apr_12_1007	MusicAffectPsychophysiology2019	3.0.5	60.17796767To what extent did the music make you feel 	ANGRY	30MonoWAV/30MonoH4.wav	2	2	8					0	5	5	7	0	1	1	2									1	1.218503929			999	1	2019_Apr_12_1007	MusicAffectPsychophysiology2019	3.0.5	60.17796767To what extent did the music make you feel 	ACTIVE	30MonoWAV/30MonoH4.wav	2	2	8					0	5	5	7	0	2	2	9									5	1.868946856			999	1	2019_Apr_12_1007	MusicAffectPsychophysiology2019	3.0.5	60.17796767To what extent did the music make you feel 	HAPPY	30MonoWAV/30MonoH4.wav	2	2	8					0	5	5	7	0	3	3	6									4	1.768090562			999	1	2019_Apr_12_1007	MusicAffectPsychophysiology2019	3.0.5	60.17796767To what extent did the music make you feel 	GUILTY	30MonoWAV/30MonoH4.wav	2	2	8					0	5	5	7	0	4	4	5									1	1.901930592			999	1	2019_Apr_12_1007	MusicAffectPsychophysiology2019	3.0.5	60.17796767To what extent did the music make you feel 	FRUSTRATED	30MonoWAV/30MonoH4.wav	2	2	8					0	5	5	7	0	5	5	3									1	4.468429538			999	1	2019_Apr_12_1007	MusicAffectPsychophysiology2019	3.0.5	60.17796767To what extent did the music make you feel 	TENDER	30MonoWAV/30MonoH4.wav	2	2	8					0	5	5	7	0	6	6	10									3	1.285270279			999	1	2019_Apr_12_1007	MusicAffectPsychophysiology2019	3.0.5	60.17796767To what extent did the music make you feel 	ASHAMED	30MonoWAV/30MonoH4.wav	2	2	8					0	5	5	7	0	7	7	4									1	2.551069735			999	1	2019_Apr_12_1007	MusicAffectPsychophysiology2019	3.0.5	60.17796767To what extent did the music make you feel 	ALERT	30MonoWAV/30MonoH4.wav	2	2	8					0	5	5	7	0	8	8	8									4	1.801836785			999	1	2019_Apr_12_1007	MusicAffectPsychophysiology2019	3.0.5	60.17796767To what extent did the music make you feel 	SCARED	30MonoWAV/30MonoH4.wav	2	2	8					0	5	5	7	0	9	9	11									1	1.984339417			999	1	2019_Apr_12_1007	MusicAffectPsychophysiology2019	3.0.5	60.17796767To what extent did the music make you feel 	EXCITED	30MonoWAV/30MonoH4.wav	2	2	8					0	5	5	7	0	10	10	7									5	1.401424107			999	1	2019_Apr_12_1007	MusicAffectPsychophysiology2019	3.0.5	60.17796767To what extent did the music make you feel 	SAD	30MonoWAV/30MonoH4.wav	2	2	8					0	5	5	7	0	11	11	0									1	1.751512169			999	1	2019_Apr_12_1007	MusicAffectPsychophysiology2019	3.0.5	60.17796767		30MonoWAV/30MonoH4.wav	2	2	8					0	5	5	7																	999	1	2019_Apr_12_1007	MusicAffectPsychophysiology2019	3.0.5	60.17796767To what extent did the music make you feel 	ACTIVE	30MonoWAV/30MonoS1.wav	1	1	9					0	6	6	8	0	0	0	9			3	2.938992758	4	2.97214552			2	4.640163332			999	1	2019_Apr_12_1007	MusicAffectPsychophysiology2019	3.0.5	60.17796767To what extent did the music make you feel 	EXCITED	30MonoWAV/30MonoS1.wav	1	1	9					0	6	6	8	0	1	1	7									1	2.368844077			999	1	2019_Apr_12_1007	MusicAffectPsychophysiology2019	3.0.5	60.17796767To what extent did the music make you feel 	TENDER	30MonoWAV/30MonoS1.wav	1	1	9					0	6	6	8	0	2	2	10									4	2.10100875			999	1	2019_Apr_12_1007	MusicAffectPsychophysiology2019	3.0.5	60.17796767To what extent did the music make you feel 	ANGRY	30MonoWAV/30MonoS1.wav	1	1	9					0	6	6	8	0	3	3	2									2	4.634552098			999	1	2019_Apr_12_1007	MusicAffectPsychophysiology2019	3.0.5	60.17796767To what extent did the music make you feel 	ANXIOUS 	30MonoWAV/30MonoS1.wav	1	1	9					0	6	6	8	0	4	4	1									4	2.551715925			999	1	2019_Apr_12_1007	MusicAffectPsychophysiology2019	3.0.5	60.17796767To what extent did the music make you feel 	SAD	30MonoWAV/30MonoS1.wav	1	1	9					0	6	6	8	0	5	5	0									5	1.283885816			999	1	2019_Apr_12_1007	MusicAffectPsychophysiology2019	3.0.5	60.17796767To what extent did the music make you feel 	FRUSTRATED	30MonoWAV/30MonoS1.wav	1	1	9					0	6	6	8	0	6	6	3									3	4.817652469			999	1	2019_Apr_12_1007	MusicAffectPsychophysiology2019	3.0.5	60.17796767To what extent did the music make you feel 	SCARED	30MonoWAV/30MonoS1.wav	1	1	9					0	6	6	8	0	7	7	11									3	1.751119293			999	1	2019_Apr_12_1007	MusicAffectPsychophysiology2019	3.0.5	60.17796767To what extent did the music make you feel 	ALERT	30MonoWAV/30MonoS1.wav	1	1	9					0	6	6	8	0	8	8	8									3	1.884568533			999	1	2019_Apr_12_1007	MusicAffectPsychophysiology2019	3.0.5	60.17796767To what extent did the music make you feel 	ASHAMED	30MonoWAV/30MonoS1.wav	1	1	9					0	6	6	8	0	9	9	4									4	1.601428354			999	1	2019_Apr_12_1007	MusicAffectPsychophysiology2019	3.0.5	60.17796767To what extent did the music make you feel 	HAPPY	30MonoWAV/30MonoS1.wav	1	1	9					0	6	6	8	0	10	10	6									1	2.118043117			999	1	2019_Apr_12_1007	MusicAffectPsychophysiology2019	3.0.5	60.17796767To what extent did the music make you feel 	GUILTY	30MonoWAV/30MonoS1.wav	1	1	9					0	6	6	8	0	11	11	5									5	5.66702707			999	1	2019_Apr_12_1007	MusicAffectPsychophysiology2019	3.0.5	60.17796767		30MonoWAV/30MonoS1.wav	1	1	9					0	6	6	8																	999	1	2019_Apr_12_1007	MusicAffectPsychophysiology2019	3.0.5	60.17796767To what extent did the music make you feel 	EXCITED	30MonoWAV/30MonoF2.wav	1	2	2					0	7	7	1	0	0	0	7			4	4.717002855	1	1.601891407			1	2.885906279			999	1	2019_Apr_12_1007	MusicAffectPsychophysiology2019	3.0.5	60.17796767To what extent did the music make you feel 	ANGRY	30MonoWAV/30MonoF2.wav	1	2	2					0	7	7	1	0	1	1	2									4	2.618091423			999	1	2019_Apr_12_1007	MusicAffectPsychophysiology2019	3.0.5	60.17796767To what extent did the music make you feel 	SCARED	30MonoWAV/30MonoF2.wav	1	2	2					0	7	7	1	0	2	2	11									5	1.119066472			999	1	2019_Apr_12_1007	MusicAffectPsychophysiology2019	3.0.5	60.17796767To what extent did the music make you feel 	ANXIOUS 	30MonoWAV/30MonoF2.wav	1	2	2					0	7	7	1	0	3	3	1									5	1.085159768			999	1	2019_Apr_12_1007	MusicAffectPsychophysiology2019	3.0.5	60.17796767To what extent did the music make you feel 	ALERT	30MonoWAV/30MonoF2.wav	1	2	2					0	7	7	1	0	4	4	8									4	1.335044623			999	1	2019_Apr_12_1007	MusicAffectPsychophysiology2019	3.0.5	60.17796767To what extent did the music make you feel 	ACTIVE	30MonoWAV/30MonoF2.wav	1	2	2					0	7	7	1	0	5	5	9									4	2.500996466			999	1	2019_Apr_12_1007	MusicAffectPsychophysiology2019	3.0.5	60.17796767To what extent did the music make you feel 	FRUSTRATED	30MonoWAV/30MonoF2.wav	1	2	2					0	7	7	1	0	6	6	3									5	1.15104903			999	1	2019_Apr_12_1007	MusicAffectPsychophysiology2019	3.0.5	60.17796767To what extent did the music make you feel 	GUILTY	30MonoWAV/30MonoF2.wav	1	2	2					0	7	7	1	0	7	7	5									4	1.617819472			999	1	2019_Apr_12_1007	MusicAffectPsychophysiology2019	3.0.5	60.17796767To what extent did the music make you feel 	SAD	30MonoWAV/30MonoF2.wav	1	2	2					0	7	7	1	0	8	8	0									4	2.068221239			999	1	2019_Apr_12_1007	MusicAffectPsychophysiology2019	3.0.5	60.17796767To what extent did the music make you feel 	TENDER	30MonoWAV/30MonoF2.wav	1	2	2					0	7	7	1	0	9	9	10									4	1.051141158			999	1	2019_Apr_12_1007	MusicAffectPsychophysiology2019	3.0.5	60.17796767To what extent did the music make you feel 	HAPPY	30MonoWAV/30MonoF2.wav	1	2	2					0	7	7	1	0	10	10	6									1	2.785204855			999	1	2019_Apr_12_1007	MusicAffectPsychophysiology2019	3.0.5	60.17796767To what extent did the music make you feel 	ASHAMED	30MonoWAV/30MonoF2.wav	1	2	2					0	7	7	1	0	11	11	4									4	1.635077909			999	1	2019_Apr_12_1007	MusicAffectPsychophysiology2019	3.0.5	60.17796767		30MonoWAV/30MonoF2.wav	1	2	2					0	7	7	1																	999	1	2019_Apr_12_1007	MusicAffectPsychophysiology2019	3.0.5	60.17796767To what extent did the music make you feel 	SCARED	30MonoWAV/30MonoT2.wav	2	1	14					0	8	8	13	0	0	0	11			5	2.369384196	5	1.200767649			1	2.665105085			999	1	2019_Apr_12_1007	MusicAffectPsychophysiology2019	3.0.5	60.17796767To what extent did the music make you feel 	GUILTY	30MonoWAV/30MonoT2.wav	2	1	14					0	8	8	13	0	1	1	5									1	1.434920379			999	1	2019_Apr_12_1007	MusicAffectPsychophysiology2019	3.0.5	60.17796767To what extent did the music make you feel 	ALERT	30MonoWAV/30MonoT2.wav	2	1	14					0	8	8	13	0	2	2	8									2	1.502458534			999	1	2019_Apr_12_1007	MusicAffectPsychophysiology2019	3.0.5	60.17796767To what extent did the music make you feel 	ASHAMED	30MonoWAV/30MonoT2.wav	2	1	14					0	8	8	13	0	3	3	4									1	2.217376249			999	1	2019_Apr_12_1007	MusicAffectPsychophysiology2019	3.0.5	60.17796767To what extent did the music make you feel 	EXCITED	30MonoWAV/30MonoT2.wav	2	1	14					0	8	8	13	0	4	4	7									4	2.734027917			999	1	2019_Apr_12_1007	MusicAffectPsychophysiology2019	3.0.5	60.17796767To what extent did the music make you feel 	SAD	30MonoWAV/30MonoT2.wav	2	1	14					0	8	8	13	0	5	5	0									1	2.938153349			999	1	2019_Apr_12_1007	MusicAffectPsychophysiology2019	3.0.5	60.17796767To what extent did the music make you feel 	TENDER	30MonoWAV/30MonoT2.wav	2	1	14					0	8	8	13	0	6	6	10									5	3.081095872			999	1	2019_Apr_12_1007	MusicAffectPsychophysiology2019	3.0.5	60.17796767To what extent did the music make you feel 	ANGRY	30MonoWAV/30MonoT2.wav	2	1	14					0	8	8	13	0	7	7	2									1	1.767938411			999	1	2019_Apr_12_1007	MusicAffectPsychophysiology2019	3.0.5	60.17796767To what extent did the music make you feel 	ACTIVE	30MonoWAV/30MonoT2.wav	2	1	14					0	8	8	13	0	8	8	9									2	4.38546764			999	1	2019_Apr_12_1007	MusicAffectPsychophysiology2019	3.0.5	60.17796767To what extent did the music make you feel 	FRUSTRATED	30MonoWAV/30MonoT2.wav	2	1	14					0	8	8	13	0	9	9	3									1	1.167540947			999	1	2019_Apr_12_1007	MusicAffectPsychophysiology2019	3.0.5	60.17796767To what extent did the music make you feel 	ANXIOUS 	30MonoWAV/30MonoT2.wav	2	1	14					0	8	8	13	0	10	10	1									1	2.202260808			999	1	2019_Apr_12_1007	MusicAffectPsychophysiology2019	3.0.5	60.17796767To what extent did the music make you feel 	HAPPY	30MonoWAV/30MonoT2.wav	2	1	14					0	8	8	13	0	11	11	6									5	2.417001599			999	1	2019_Apr_12_1007	MusicAffectPsychophysiology2019	3.0.5	60.17796767		30MonoWAV/30MonoT2.wav	2	1	14					0	8	8	13																	999	1	2019_Apr_12_1007	MusicAffectPsychophysiology2019	3.0.5	60.17796767To what extent did the music make you feel 	GUILTY	30MonoWAV/30MonoH1.wav	2	2	5					0	9	9	4	0	0	0	5			2	3.408516371	3	1.967940027			2	3.168614082			999	1	2019_Apr_12_1007	MusicAffectPsychophysiology2019	3.0.5	60.17796767To what extent did the music make you feel 	HAPPY	30MonoWAV/30MonoH1.wav	2	2	5					0	9	9	4	0	1	1	6									2	2.350733911			999	1	2019_Apr_12_1007	MusicAffectPsychophysiology2019	3.0.5	60.17796767To what extent did the music make you feel 	ALERT	30MonoWAV/30MonoH1.wav	2	2	5					0	9	9	4	0	2	2	8									2	1.068033524			999	1	2019_Apr_12_1007	MusicAffectPsychophysiology2019	3.0.5	60.17796767To what extent did the music make you feel 	FRUSTRATED	30MonoWAV/30MonoH1.wav	2	2	5					0	9	9	4	0	3	3	3									2	3.668569291			999	1	2019_Apr_12_1007	MusicAffectPsychophysiology2019	3.0.5	60.17796767To what extent did the music make you feel 	SCARED	30MonoWAV/30MonoH1.wav	2	2	5					0	9	9	4	0	4	4	11									1	1.485414394			999	1	2019_Apr_12_1007	MusicAffectPsychophysiology2019	3.0.5	60.17796767To what extent did the music make you feel 	TENDER	30MonoWAV/30MonoH1.wav	2	2	5					0	9	9	4	0	5	5	10									2	1.352003973			999	1	2019_Apr_12_1007	MusicAffectPsychophysiology2019	3.0.5	60.17796767To what extent did the music make you feel 	ANGRY	30MonoWAV/30MonoH1.wav	2	2	5					0	9	9	4	0	6	6	2									1	2.135195173			999	1	2019_Apr_12_1007	MusicAffectPsychophysiology2019	3.0.5	60.17796767To what extent did the music make you feel 	EXCITED	30MonoWAV/30MonoH1.wav	2	2	5					0	9	9	4	0	7	7	7									1	3.285621505			999	1	2019_Apr_12_1007	MusicAffectPsychophysiology2019	3.0.5	60.17796767To what extent did the music make you feel 	SAD	30MonoWAV/30MonoH1.wav	2	2	5					0	9	9	4	0	8	8	0									1	3.884191082			999	1	2019_Apr_12_1007	MusicAffectPsychophysiology2019	3.0.5	60.17796767To what extent did the music make you feel 	ANXIOUS 	30MonoWAV/30MonoH1.wav	2	2	5					0	9	9	4	0	9	9	1									1	2.267999962			999	1	2019_Apr_12_1007	MusicAffectPsychophysiology2019	3.0.5	60.17796767To what extent did the music make you feel 	ACTIVE	30MonoWAV/30MonoH1.wav	2	2	5					0	9	9	4	0	10	10	9									1	4.734521476			999	1	2019_Apr_12_1007	MusicAffectPsychophysiology2019	3.0.5	60.17796767To what extent did the music make you feel 	ASHAMED	30MonoWAV/30MonoH1.wav	2	2	5					0	9	9	4	0	11	11	4									2	1.788295147			999	1	2019_Apr_12_1007	MusicAffectPsychophysiology2019	3.0.5	60.17796767		30MonoWAV/30MonoH1.wav	2	2	5					0	9	9	4																	999	1	2019_Apr_12_1007	MusicAffectPsychophysiology2019	3.0.5	60.17796767To what extent did the music make you feel 	SCARED	30MonoWAV/30MonoS3.wav	1	1	11					0	10	10	10	0	0	0	11			3	3.139623347	1	4.884426245			4	3.318389546			999	1	2019_Apr_12_1007	MusicAffectPsychophysiology2019	3.0.5	60.17796767To what extent did the music make you feel 	ALERT	30MonoWAV/30MonoS3.wav	1	1	11					0	10	10	10	0	1	1	8									5	1.434465377			999	1	2019_Apr_12_1007	MusicAffectPsychophysiology2019	3.0.5	60.17796767To what extent did the music make you feel 	ACTIVE	30MonoWAV/30MonoS3.wav	1	1	11					0	10	10	10	0	2	2	9									3	1.702031524			999	1	2019_Apr_12_1007	MusicAffectPsychophysiology2019	3.0.5	60.17796767To what extent did the music make you feel 	FRUSTRATED	30MonoWAV/30MonoS3.wav	1	1	11					0	10	10	10	0	3	3	3									5	1.518058037			999	1	2019_Apr_12_1007	MusicAffectPsychophysiology2019	3.0.5	60.17796767To what extent did the music make you feel 	ANGRY	30MonoWAV/30MonoS3.wav	1	1	11					0	10	10	10	0	4	4	2									5	2.350707355			999	1	2019_Apr_12_1007	MusicAffectPsychophysiology2019	3.0.5	60.17796767To what extent did the music make you feel 	ANXIOUS 	30MonoWAV/30MonoS3.wav	1	1	11					0	10	10	10	0	5	5	1									5	1.619180417			999	1	2019_Apr_12_1007	MusicAffectPsychophysiology2019	3.0.5	60.17796767To what extent did the music make you feel 	TENDER	30MonoWAV/30MonoS3.wav	1	1	11					0	10	10	10	0	6	6	10									2	1.885659851			999	1	2019_Apr_12_1007	MusicAffectPsychophysiology2019	3.0.5	60.17796767To what extent did the music make you feel 	GUILTY	30MonoWAV/30MonoS3.wav	1	1	11					0	10	10	10	0	7	7	5									4	1.235120592			999	1	2019_Apr_12_1007	MusicAffectPsychophysiology2019	3.0.5	60.17796767To what extent did the music make you feel 	ASHAMED	30MonoWAV/30MonoS3.wav	1	1	11					0	10	10	10	0	8	8	4									5	1.185218484			999	1	2019_Apr_12_1007	MusicAffectPsychophysiology2019	3.0.5	60.17796767To what extent did the music make you feel 	EXCITED	30MonoWAV/30MonoS3.wav	1	1	11					0	10	10	10	0	9	9	7									1	1.435511278			999	1	2019_Apr_12_1007	MusicAffectPsychophysiology2019	3.0.5	60.17796767To what extent did the music make you feel 	HAPPY	30MonoWAV/30MonoS3.wav	1	1	11					0	10	10	10	0	10	10	6									1	1.116989146			999	1	2019_Apr_12_1007	MusicAffectPsychophysiology2019	3.0.5	60.17796767To what extent did the music make you feel 	SAD	30MonoWAV/30MonoS3.wav	1	1	11					0	10	10	10	0	11	11	0									4	3.367728957			999	1	2019_Apr_12_1007	MusicAffectPsychophysiology2019	3.0.5	60.17796767		30MonoWAV/30MonoS3.wav	1	1	11					0	10	10	10																	999	1	2019_Apr_12_1007	MusicAffectPsychophysiology2019	3.0.5	60.17796767To what extent did the music make you feel 	GUILTY	30MonoWAV/30MonoF1.wav	1	2	1					0	11	11	0	0	0	0	5			4	3.467735908	1	1.984912606			5	2.384461475			999	1	2019_Apr_12_1007	MusicAffectPsychophysiology2019	3.0.5	60.17796767To what extent did the music make you feel 	ASHAMED	30MonoWAV/30MonoF1.wav	1	2	1					0	11	11	0	0	1	1	4									5	1.252206337			999	1	2019_Apr_12_1007	MusicAffectPsychophysiology2019	3.0.5	60.17796767To what extent did the music make you feel 	HAPPY	30MonoWAV/30MonoF1.wav	1	2	1					0	11	11	0	0	2	2	6									1	1.518628755			999	1	2019_Apr_12_1007	MusicAffectPsychophysiology2019	3.0.5	60.17796767To what extent did the music make you feel 	SCARED	30MonoWAV/30MonoF1.wav	1	2	1					0	11	11	0	0	3	3	11									5	1.118483204			999	1	2019_Apr_12_1007	MusicAffectPsychophysiology2019	3.0.5	60.17796767To what extent did the music make you feel 	ALERT	30MonoWAV/30MonoF1.wav	1	2	1					0	11	11	0	0	4	4	8									5	1.18497289			999	1	2019_Apr_12_1007	MusicAffectPsychophysiology2019	3.0.5	60.17796767To what extent did the music make you feel 	TENDER	30MonoWAV/30MonoF1.wav	1	2	1					0	11	11	0	0	5	5	10									4	1.3018542			999	1	2019_Apr_12_1007	MusicAffectPsychophysiology2019	3.0.5	60.17796767To what extent did the music make you feel 	FRUSTRATED	30MonoWAV/30MonoF1.wav	1	2	1					0	11	11	0	0	6	6	3									4	1.335738563			999	1	2019_Apr_12_1007	MusicAffectPsychophysiology2019	3.0.5	60.17796767To what extent did the music make you feel 	EXCITED	30MonoWAV/30MonoF1.wav	1	2	1					0	11	11	0	0	7	7	7									1	1.501295536			999	1	2019_Apr_12_1007	MusicAffectPsychophysiology2019	3.0.5	60.17796767To what extent did the music make you feel 	SAD	30MonoWAV/30MonoF1.wav	1	2	1					0	11	11	0	0	8	8	0									4	1.649652912			999	1	2019_Apr_12_1007	MusicAffectPsychophysiology2019	3.0.5	60.17796767To what extent did the music make you feel 	ANXIOUS 	30MonoWAV/30MonoF1.wav	1	2	1					0	11	11	0	0	9	9	1									5	1.183739855			999	1	2019_Apr_12_1007	MusicAffectPsychophysiology2019	3.0.5	60.17796767To what extent did the music make you feel 	ACTIVE	30MonoWAV/30MonoF1.wav	1	2	1					0	11	11	0	0	10	10	9									4	1.452457918			999	1	2019_Apr_12_1007	MusicAffectPsychophysiology2019	3.0.5	60.17796767To what extent did the music make you feel 	ANGRY	30MonoWAV/30MonoF1.wav	1	2	1					0	11	11	0	0	11	11	2									5	4.601053026			999	1	2019_Apr_12_1007	MusicAffectPsychophysiology2019	3.0.5	60.17796767		30MonoWAV/30MonoF1.wav	1	2	1					0	11	11	0																	999	1	2019_Apr_12_1007	MusicAffectPsychophysiology2019	3.0.5	60.17796767To what extent did the music make you feel 	GUILTY	30MonoWAV/30MonoS2.wav	1	1	10					0	12	12	9	0	0	0	5			2	3.706494862	4	1.838207892			1	3.372463875			999	1	2019_Apr_12_1007	MusicAffectPsychophysiology2019	3.0.5	60.17796767To what extent did the music make you feel 	TENDER	30MonoWAV/30MonoS2.wav	1	1	10					0	12	12	9	0	1	1	10									4	2.068663151			999	1	2019_Apr_12_1007	MusicAffectPsychophysiology2019	3.0.5	60.17796767To what extent did the music make you feel 	SCARED	30MonoWAV/30MonoS2.wav	1	1	10					0	12	12	9	0	2	2	11									1	2.085697077			999	1	2019_Apr_12_1007	MusicAffectPsychophysiology2019	3.0.5	60.17796767To what extent did the music make you feel 	ANGRY	30MonoWAV/30MonoS2.wav	1	1	10					0	12	12	9	0	3	3	2									1	1.61714626			999	1	2019_Apr_12_1007	MusicAffectPsychophysiology2019	3.0.5	60.17796767To what extent did the music make you feel 	ANXIOUS 	30MonoWAV/30MonoS2.wav	1	1	10					0	12	12	9	0	4	4	1									2	1.985422446			999	1	2019_Apr_12_1007	MusicAffectPsychophysiology2019	3.0.5	60.17796767To what extent did the music make you feel 	ASHAMED	30MonoWAV/30MonoS2.wav	1	1	10					0	12	12	9	0	5	5	4									2	1.968270235			999	1	2019_Apr_12_1007	MusicAffectPsychophysiology2019	3.0.5	60.17796767To what extent did the music make you feel 	ACTIVE	30MonoWAV/30MonoS2.wav	1	1	10					0	12	12	9	0	6	6	9									1	3.517783872			999	1	2019_Apr_12_1007	MusicAffectPsychophysiology2019	3.0.5	60.17796767To what extent did the music make you feel 	HAPPY	30MonoWAV/30MonoS2.wav	1	1	10					0	12	12	9	0	7	7	6									2	3.219144868			999	1	2019_Apr_12_1007	MusicAffectPsychophysiology2019	3.0.5	60.17796767To what extent did the music make you feel 	SAD	30MonoWAV/30MonoS2.wav	1	1	10					0	12	12	9	0	8	8	0									4	2.307580736			999	1	2019_Apr_12_1007	MusicAffectPsychophysiology2019	3.0.5	60.17796767To what extent did the music make you feel 	FRUSTRATED	30MonoWAV/30MonoS2.wav	1	1	10					0	12	12	9	0	9	9	3									2	4.3228984			999	1	2019_Apr_12_1007	MusicAffectPsychophysiology2019	3.0.5	60.17796767To what extent did the music make you feel 	EXCITED	30MonoWAV/30MonoS2.wav	1	1	10					0	12	12	9	0	10	10	7									2	2.956710333			999	1	2019_Apr_12_1007	MusicAffectPsychophysiology2019	3.0.5	60.17796767To what extent did the music make you feel 	ALERT	30MonoWAV/30MonoS2.wav	1	1	10					0	12	12	9	0	11	11	8									1	2.468173106			999	1	2019_Apr_12_1007	MusicAffectPsychophysiology2019	3.0.5	60.17796767		30MonoWAV/30MonoS2.wav	1	1	10					0	12	12	9																	999	1	2019_Apr_12_1007	MusicAffectPsychophysiology2019	3.0.5	60.17796767To what extent did the music make you feel 	TENDER	30MonoWAV/30MonoT3.wav	2	1	15					0	13	13	14	0	0	0	10			3	2.602582399	5	1.534378176			4	1.90187464			999	1	2019_Apr_12_1007	MusicAffectPsychophysiology2019	3.0.5	60.17796767To what extent did the music make you feel 	EXCITED	30MonoWAV/30MonoT3.wav	2	1	15					0	13	13	14	0	1	1	7									3	2.034776992			999	1	2019_Apr_12_1007	MusicAffectPsychophysiology2019	3.0.5	60.17796767To what extent did the music make you feel 	FRUSTRATED	30MonoWAV/30MonoT3.wav	2	1	15					0	13	13	14	0	2	2	3									1	1.300538895			999	1	2019_Apr_12_1007	MusicAffectPsychophysiology2019	3.0.5	60.17796767To what extent did the music make you feel 	ANGRY	30MonoWAV/30MonoT3.wav	2	1	15					0	13	13	14	0	3	3	2									1	1.018227523			999	1	2019_Apr_12_1007	MusicAffectPsychophysiology2019	3.0.5	60.17796767To what extent did the music make you feel 	GUILTY	30MonoWAV/30MonoT3.wav	2	1	15					0	13	13	14	0	4	4	5									1	1.534742343			999	1	2019_Apr_12_1007	MusicAffectPsychophysiology2019	3.0.5	60.17796767To what extent did the music make you feel 	HAPPY	30MonoWAV/30MonoT3.wav	2	1	15					0	13	13	14	0	5	5	6									4	1.634890133			999	1	2019_Apr_12_1007	MusicAffectPsychophysiology2019	3.0.5	60.17796767To what extent did the music make you feel 	ALERT	30MonoWAV/30MonoT3.wav	2	1	15					0	13	13	14	0	6	6	8									2	1.884646177			999	1	2019_Apr_12_1007	MusicAffectPsychophysiology2019	3.0.5	60.17796767To what extent did the music make you feel 	ANXIOUS 	30MonoWAV/30MonoT3.wav	2	1	15					0	13	13	14	0	7	7	1									1	1.418040284			999	1	2019_Apr_12_1007	MusicAffectPsychophysiology2019	3.0.5	60.17796767To what extent did the music make you feel 	SCARED	30MonoWAV/30MonoT3.wav	2	1	15					0	13	13	14	0	8	8	11									1	1.035408532			999	1	2019_Apr_12_1007	MusicAffectPsychophysiology2019	3.0.5	60.17796767To what extent did the music make you feel 	ASHAMED	30MonoWAV/30MonoT3.wav	2	1	15					0	13	13	14	0	9	9	4									1	1.217923529			999	1	2019_Apr_12_1007	MusicAffectPsychophysiology2019	3.0.5	60.17796767To what extent did the music make you feel 	SAD	30MonoWAV/30MonoT3.wav	2	1	15					0	13	13	14	0	10	10	0									1	1.718759375			999	1	2019_Apr_12_1007	MusicAffectPsychophysiology2019	3.0.5	60.17796767To what extent did the music make you feel 	ACTIVE	30MonoWAV/30MonoT3.wav	2	1	15					0	13	13	14	0	11	11	9									2	1.668501178			999	1	2019_Apr_12_1007	MusicAffectPsychophysiology2019	3.0.5	60.17796767		30MonoWAV/30MonoT3.wav	2	1	15					0	13	13	14																	999	1	2019_Apr_12_1007	MusicAffectPsychophysiology2019	3.0.5	60.17796767To what extent did the music make you feel 	HAPPY	30MonoWAV/30MonoT4.wav	2	1	16					0	14	14	15	0	0	0	6			4	2.671414259	5	1.219530156			5	1.737078208			999	1	2019_Apr_12_1007	MusicAffectPsychophysiology2019	3.0.5	60.17796767To what extent did the music make you feel 	ACTIVE	30MonoWAV/30MonoT4.wav	2	1	16					0	14	14	15	0	1	1	9									4	1.538193335			999	1	2019_Apr_12_1007	MusicAffectPsychophysiology2019	3.0.5	60.17796767To what extent did the music make you feel 	SCARED	30MonoWAV/30MonoT4.wav	2	1	16					0	14	14	15	0	2	2	11									1	1.285261297			999	1	2019_Apr_12_1007	MusicAffectPsychophysiology2019	3.0.5	60.17796767To what extent did the music make you feel 	FRUSTRATED	30MonoWAV/30MonoT4.wav	2	1	16					0	14	14	15	0	3	3	3									1	0.801497792			999	1	2019_Apr_12_1007	MusicAffectPsychophysiology2019	3.0.5	60.17796767To what extent did the music make you feel 	TENDER	30MonoWAV/30MonoT4.wav	2	1	16					0	14	14	15	0	4	4	10									4	2.285329271			999	1	2019_Apr_12_1007	MusicAffectPsychophysiology2019	3.0.5	60.17796767To what extent did the music make you feel 	ANGRY	30MonoWAV/30MonoT4.wav	2	1	16					0	14	14	15	0	5	5	2									1	1.402399484			999	1	2019_Apr_12_1007	MusicAffectPsychophysiology2019	3.0.5	60.17796767To what extent did the music make you feel 	ANXIOUS 	30MonoWAV/30MonoT4.wav	2	1	16					0	14	14	15	0	6	6	1									2	1.785182845			999	1	2019_Apr_12_1007	MusicAffectPsychophysiology2019	3.0.5	60.17796767To what extent did the music make you feel 	GUILTY	30MonoWAV/30MonoT4.wav	2	1	16					0	14	14	15	0	7	7	5									1	1.801362799			999	1	2019_Apr_12_1007	MusicAffectPsychophysiology2019	3.0.5	60.17796767To what extent did the music make you feel 	ASHAMED	30MonoWAV/30MonoT4.wav	2	1	16					0	14	14	15	0	8	8	4									1	2.052269391			999	1	2019_Apr_12_1007	MusicAffectPsychophysiology2019	3.0.5	60.17796767To what extent did the music make you feel 	ALERT	30MonoWAV/30MonoT4.wav	2	1	16					0	14	14	15	0	9	9	8									3	1.734543821			999	1	2019_Apr_12_1007	MusicAffectPsychophysiology2019	3.0.5	60.17796767To what extent did the music make you feel 	EXCITED	30MonoWAV/30MonoT4.wav	2	1	16					0	14	14	15	0	10	10	7									5	1.533889749			999	1	2019_Apr_12_1007	MusicAffectPsychophysiology2019	3.0.5	60.17796767To what extent did the music make you feel 	SAD	30MonoWAV/30MonoT4.wav	2	1	16					0	14	14	15	0	11	11	0									1	1.469722304			999	1	2019_Apr_12_1007	MusicAffectPsychophysiology2019	3.0.5	60.17796767		30MonoWAV/30MonoT4.wav	2	1	16					0	14	14	15																	999	1	2019_Apr_12_1007	MusicAffectPsychophysiology2019	3.0.5	60.17796767To what extent did the music make you feel 	ANGRY	30MonoWAV/30MonoS4.wav	1	1	12					0	15	15	11	0	0	0	2			2	5.050141414	4	2.018882386			1	2.084271009			999	1	2019_Apr_12_1007	MusicAffectPsychophysiology2019	3.0.5	60.17796767To what extent did the music make you feel 	ACTIVE	30MonoWAV/30MonoS4.wav	1	1	12					0	15	15	11	0	1	1	9									1	1.069321956			999	1	2019_Apr_12_1007	MusicAffectPsychophysiology2019	3.0.5	60.17796767To what extent did the music make you feel 	SAD	30MonoWAV/30MonoS4.wav	1	1	12					0	15	15	11	0	2	2	0									5	3.384246893			999	1	2019_Apr_12_1007	MusicAffectPsychophysiology2019	3.0.5	60.17796767To what extent did the music make you feel 	HAPPY	30MonoWAV/30MonoS4.wav	1	1	12					0	15	15	11	0	3	3	6									2	1.884649793			999	1	2019_Apr_12_1007	MusicAffectPsychophysiology2019	3.0.5	60.17796767To what extent did the music make you feel 	FRUSTRATED	30MonoWAV/30MonoS4.wav	1	1	12					0	15	15	11	0	4	4	3									2	6.118546347			999	1	2019_Apr_12_1007	MusicAffectPsychophysiology2019	3.0.5	60.17796767To what extent did the music make you feel 	ALERT	30MonoWAV/30MonoS4.wav	1	1	12					0	15	15	11	0	5	5	8									1	3.468666043			999	1	2019_Apr_12_1007	MusicAffectPsychophysiology2019	3.0.5	60.17796767To what extent did the music make you feel 	GUILTY	30MonoWAV/30MonoS4.wav	1	1	12					0	15	15	11	0	6	6	5									3	2.950744307			999	1	2019_Apr_12_1007	MusicAffectPsychophysiology2019	3.0.5	60.17796767To what extent did the music make you feel 	TENDER	30MonoWAV/30MonoS4.wav	1	1	12					0	15	15	11	0	7	7	10									4	1.267951453			999	1	2019_Apr_12_1007	MusicAffectPsychophysiology2019	3.0.5	60.17796767To what extent did the music make you feel 	ASHAMED	30MonoWAV/30MonoS4.wav	1	1	12					0	15	15	11	0	8	8	4									2	2.385335318			999	1	2019_Apr_12_1007	MusicAffectPsychophysiology2019	3.0.5	60.17796767To what extent did the music make you feel 	SCARED	30MonoWAV/30MonoS4.wav	1	1	12					0	15	15	11	0	9	9	11									2	1.733867021			999	1	2019_Apr_12_1007	MusicAffectPsychophysiology2019	3.0.5	60.17796767To what extent did the music make you feel 	ANXIOUS 	30MonoWAV/30MonoS4.wav	1	1	12					0	15	15	11	0	10	10	1									2	1.367301856			999	1	2019_Apr_12_1007	MusicAffectPsychophysiology2019	3.0.5	60.17796767To what extent did the music make you feel 	EXCITED	30MonoWAV/30MonoS4.wav	1	1	12					0	15	15	11	0	11	11	7									1	3.65257554			999	1	2019_Apr_12_1007	MusicAffectPsychophysiology2019	3.0.5	60.17796767		30MonoWAV/30MonoS4.wav	1	1	12					0	15	15	11																	999	1	2019_Apr_12_1007	MusicAffectPsychophysiology2019	3.0.5	60.17796767																												space	4.934508924	999	1	2019_Apr_12_1007	MusicAffectPsychophysiology2019	3.0.5	60.17796767